{"resourceType":"Bundle","type":"message","timestamp":"2022-02-10T10:35:22.0508425+01:00","entry":[{"fullUrl":"urn:uuid:45f909cd-2bd3-4a62-8829-b598e522be31","resource":{"resourceType":"MessageHeader","id":"45f909cd-2bd3-4a62-8829-b598e522be31","eventCoding":{"system":"http://medcomfhir.dk/fhir/core/1.0/CodeSystem/medcom-messaging-eventCodes","code":"care-communication-message"},"destination":[{"extension":[{"url":"http://medcomfhir.dk/fhir/core/1.0/StructureDefinition/medcom-messaging-destinationUseExtension","valueCoding":{"system":"http://medcomfhir.dk/fhir/core/1.0/CodeSystem/medcom-messaging-destinationUse","code":"primary"}}],"endpoint":"http://medcomfhir.dk/unknown","receiver":{"reference":"urn:uuid:b6e24fea-3319-48ed-88e3-66932122817c"}}],"sender":{"reference":"urn:uuid:076712aa-ab1d-4eaa-b9ce-ef3d8829e1d5"},"source":{"endpoint":"http://medcomfhir.dk/unknown"},"focus":[{"reference":"urn:uuid:8c3a9f76-96fb-471c-8088-439bad794b6a"}]}},{"fullUrl":"urn:uuid:b6e24fea-3319-48ed-88e3-66932122817c","resource":{"resourceType":"Organization","id":"b6e24fea-3319-48ed-88e3-66932122817c","identifier":[{"system":"urn:oid:1.2.208.176.1.1","value":"098765432109876"},{"system":"urn:oid:1.3.88","value":"098765432109"}],"name":"Jens Villadsen"}},{"fullUrl":"urn:uuid:076712aa-ab1d-4eaa-b9ce-ef3d8829e1d5","resource":{"resourceType":"Organization","id":"076712aa-ab1d-4eaa-b9ce-ef3d8829e1d5","identifier":[{"system":"urn:oid:1.2.208.176.1.1","value":"123456789012345"},{"system":"urn:oid:1.3.88","value":"123456789012"}],"name":"Torben Hagensen"}},{"fullUrl":"urn:uuid:dd88462d-4fc2-4b97-b6c4-ae4b6a997bc7","resource":{"resourceType":"Patient","id":"dd88462d-4fc2-4b97-b6c4-ae4b6a997bc7","name":[{"use":"official","family":"Mikkelsen","given":["John"]}],"deceasedBoolean":false,"address":[{"line":["Vandposten 1"],"city":"XKøbing","postalCode":"9999"}]}},{"fullUrl":"urn:uuid:26cf92bc-09fb-4690-b3b5-489b69a3aef0","resource":{"resourceType":"Practitioner","id":"26cf92bc-09fb-4690-b3b5-489b69a3aef0","name":[{"use":"official","family":"Burns","given":["Michael"]}]}},{"fullUrl":"urn:uuid:8c3a9f76-96fb-471c-8088-439bad794b6a","resource":{"resourceType":"Communication","id":"8c3a9f76-96fb-471c-8088-439bad794b6a","status":"unknown","category":[{"coding":[{"system":"http://medcomfhir.dk/fhir/core/1.0/CodeSystem/medcom-careCommunication-categoryCodes","code":"carecoordination"}]}],"subject":{"reference":"urn:uuid:dd88462d-4fc2-4b97-b6c4-ae4b6a997bc7"},"sent":"2022-02-10T10:35:22.0508425+01:00","payload":[{"extension":[{"url":"http://medcomfhir.dk/fhir/core/1.0/StructureDefinition/medcom-core-datetime-extension","valueDateTime":"2022-02-10T10:35:22.0508425+01:00"},{"url":"http://medcomfhir.dk/fhir/core/1.0/StructureDefinition/medcom-core-author-extension","valueReference":{"reference":"urn:uuid:26cf92bc-09fb-4690-b3b5-489b69a3aef0"}}],"contentString":"Hilsen fra Aarhus"}]}},{"fullUrl":"urn:uuid:0c60b1ab-fa9a-44e4-9e9a-d47a827c1537","resource":{"resourceType":"Provenance","id":"0c60b1ab-fa9a-44e4-9e9a-d47a827c1537","target":[{"reference":"urn:uuid:45f909cd-2bd3-4a62-8829-b598e522be31"}],"occurredDateTime":"2022-02-10T10:35:22.0508425+01:00","recorded":"2022-02-10T10:35:22.0508425+01:00","activity":{"coding":[{"system":"http://medcomfhir.dk/fhir/core/1.0/CodeSystem/medcom-messaging-activityCodes","code":"new-message"}]},"agent":[{"who":{"reference":"urn:uuid:076712aa-ab1d-4eaa-b9ce-ef3d8829e1d5"}}]}}]}