{
  "resourceType": "Bundle",
  "id": "0dd5e7e2-0c0f-4a4a-bfff-f6f984fa7e3c",
  "meta": {
    "profile": [
      "http://medcomfhir.dk/fhir/core/1.0/StructureDefinition/medcom-careCommunication-message"
    ]
  },
  "type": "message",
  "timestamp": "2020-09-28T12:34:56Z",
  "entry": [
    {
      "fullUrl": "MessageHeader/42cb9200-f421-4d08-8391-7d51a2503cb4",
      "resource": {
        "resourceType": "MessageHeader",
        "id": "42cb9200-f421-4d08-8391-7d51a2503cb4",
        "meta": {
          "profile": [
            "http://medcomfhir.dk/fhir/core/1.0/StructureDefinition/medcom-careCommunication-messageHeader"
          ]
        },
        "text": {
          "status": "generated",
          "div": "<div xmlns=\"http://www.w3.org/1999/xhtml\"><p><b>Generated Narrative</b></p><p><b>event</b>: <span title=\"{http://medcomfhir.dk/fhir/core/1.0/CodeSystem/medcom-messaging-eventCodes care-communication-message}\">Care Communication Message</span></p><h3>Destinations</h3><table class=\"grid\"><tr><td>-</td><td><b>Extension</b></td><td><b>Endpoint</b></td><td><b>Receiver</b></td></tr><tr><td>*</td><td></td><td><a href=\"http://medcomfhir.dk/unknown\">http://medcomfhir.dk/unknown</a></td><td><a href=\"#Organization_74cdf292-abf3-4f5f-80ea-60a48013ff6d\">See above (Organization/74cdf292-abf3-4f5f-80ea-60a48013ff6d)</a></td></tr></table><p><b>sender</b>: <a href=\"#Organization_d7056980-a8b2-42aa-8a0e-c1fc85d1f40d\">See above (Organization/d7056980-a8b2-42aa-8a0e-c1fc85d1f40d)</a></p><h3>Sources</h3><table class=\"grid\"><tr><td>-</td><td><b>Endpoint</b></td></tr><tr><td>*</td><td><a href=\"http://medcomfhir.dk/unknown\">http://medcomfhir.dk/unknown</a></td></tr></table><p><b>focus</b>: <a href=\"#Communication_94e65db8-2f0c-4a2c-a7c9-06a160d59a12\">See above (Communication/94e65db8-2f0c-4a2c-a7c9-06a160d59a12)</a></p></div>"
        },
        "eventCoding": {
          "system": "http://medcomfhir.dk/fhir/core/1.0/CodeSystem/medcom-messaging-eventCodes",
          "code": "care-communication-message"
        },
        "destination": [
          {
            "extension": [
              {
                "url": "http://medcomfhir.dk/fhir/core/1.0/StructureDefinition/medcom-messaging-destinationUseExtension",
                "valueCoding": {
                  "system": "http://medcomfhir.dk/fhir/core/1.0/CodeSystem/medcom-messaging-destinationUse",
                  "code": "primary"
                }
              }
            ],
            "endpoint": "http://medcomfhir.dk/unknown",
            "receiver": {
              "reference": "Organization/74cdf292-abf3-4f5f-80ea-60a48013ff6d"
            }
          }
        ],
        "sender": {
          "reference": "Organization/d7056980-a8b2-42aa-8a0e-c1fc85d1f40d"
        },
        "source": {
          "endpoint": "http://medcomfhir.dk/unknown"
        },
        "focus": [
          {
            "reference": "Communication/94e65db8-2f0c-4a2c-a7c9-06a160d59a12"
          }
        ]
      }
    },
    {
      "fullUrl": "Patient/733cef33-3626-422b-955d-d506aaa65fe1",
      "resource": {
        "resourceType": "Patient",
        "id": "733cef33-3626-422b-955d-d506aaa65fe1",
        "meta": {
          "profile": [
            "http://medcomfhir.dk/fhir/core/1.0/StructureDefinition/medcom-core-patient"
          ]
        },
        "text": {
          "status": "generated",
          "div": "<div xmlns=\"http://www.w3.org/1999/xhtml\"><p><b>Generated Narrative</b></p><p><b>identifier</b>: id: 0102030405</p><p><b>name</b>: Eric Flame (OFFICIAL)</p><p><b>telecom</b>: ph: 12345678</p><p><b>address</b>: Flammesvinget 1 Aarhus 8000 C </p><p><b>managingOrganization</b>: <a href=\"#Organization_12ee0dde-a672-462f-820d-5efe832d73c9\">See above (Organization/12ee0dde-a672-462f-820d-5efe832d73c9)</a></p></div>"
        },
        "identifier": [
          {
            "system": "urn:oid:1.2.208.176.1.2",
            "value": "0102030405"
          }
        ],
        "name": [
          {
            "use": "official",
            "family": "Flame",
            "given": [
              "Eric"
            ]
          }
        ],
        "telecom": [
          {
            "system": "phone",
            "value": "12345678"
          }
        ],
        "address": [
          {
            "line": [
              "Flammesvinget 1"
            ],
            "city": "Aarhus",
            "postalCode": "8000 C"
          }
        ],
        "managingOrganization": {
          "reference": "Organization/12ee0dde-a672-462f-820d-5efe832d73c9"
        }
      }
    },
    {
      "fullUrl": "Organization/12ee0dde-a672-462f-820d-5efe832d73c9",
      "resource": {
        "resourceType": "Organization",
        "id": "12ee0dde-a672-462f-820d-5efe832d73c9",
        "meta": {
          "profile": [
            "http://medcomfhir.dk/fhir/core/1.0/StructureDefinition/medcom-core-organization"
          ]
        },
        "text": {
          "status": "generated",
          "div": "<div xmlns=\"http://www.w3.org/1999/xhtml\"><p><b>Generated Narrative</b></p><p><b>identifier</b>: id: 123456789012345 (OFFICIAL)</p><p><b>name</b>: Aros Burn Center</p></div>"
        },
        "identifier": [
          {
            "use": "official",
            "system": "urn:oid:1.2.208.176.1.1",
            "value": "123456789012345"
          }
        ],
        "name": "Aros Burn Center"
      }
    },
    {
      "fullUrl": "Communication/94e65db8-2f0c-4a2c-a7c9-06a160d59a12",
      "resource": {
        "resourceType": "Communication",
        "id": "94e65db8-2f0c-4a2c-a7c9-06a160d59a12",
        "meta": {
          "profile": [
            "http://medcomfhir.dk/fhir/core/1.0/StructureDefinition/medcom-careCommunication-communication"
          ]
        },
        "text": {
          "status": "generated",
          "div": "<div xmlns=\"http://www.w3.org/1999/xhtml\"><p><b>Generated Narrative</b></p><p><b>status</b>: unknown</p><p><b>category</b>: <span title=\"Codes: {http://medcomfhir.dk/fhir/core/1.0/CodeSystem/medcom-careCommunication-categoryCodes carecoordination}\">Care Coordination</span></p><p><b>subject</b>: <a href=\"#Patient_733cef33-3626-422b-955d-d506aaa65fe1\">See above (Patient/733cef33-3626-422b-955d-d506aaa65fe1)</a></p><p><b>encounter</b>: <a href=\"#Encounter_09437365-821a-4a94-b32b-8916db1d5f62\">See above (Encounter/09437365-821a-4a94-b32b-8916db1d5f62)</a></p><p><b>sent</b>: Sep 28, 2020, 12:34:56 PM</p><h3>Payloads</h3><table class=\"grid\"><tr><td>-</td><td><b>Extension</b></td><td><b>Content[x]</b></td></tr><tr><td>*</td><td>, </td><td>The burns are quite severe</td></tr></table></div>"
        },
        "status": "unknown",
        "category": [
          {
            "coding": [
              {
                "system": "http://medcomfhir.dk/fhir/core/1.0/CodeSystem/medcom-careCommunication-categoryCodes",
                "code": "carecoordination"
              }
            ]
          }
        ],
        "subject": {
          "reference": "Patient/733cef33-3626-422b-955d-d506aaa65fe1"
        },
        "encounter": {
          "reference": "Encounter/09437365-821a-4a94-b32b-8916db1d5f62"
        },
        "sent": "2020-09-28T12:34:56Z",
        "payload": [
          {
            "extension": [
              {
                "url": "http://medcomfhir.dk/fhir/core/1.0/StructureDefinition/medcom-core-datetime-extension",
                "valueDateTime": "2020-09-28"
              },
              {
                "url": "http://medcomfhir.dk/fhir/core/1.0/StructureDefinition/medcom-core-author-extension",
                "valueReference": {
                  "reference": "Practitioner/58c811a5-4082-44eb-9d66-ccbb112d4973"
                }
              }
            ],
            "contentString": "The burns are quite severe"
          }
        ]
      }
    },
    {
      "fullUrl": "Encounter/09437365-821a-4a94-b32b-8916db1d5f62",
      "resource": {
        "resourceType": "Encounter",
        "id": "09437365-821a-4a94-b32b-8916db1d5f62",
        "meta": {
          "profile": [
            "http://medcomfhir.dk/fhir/core/1.0/StructureDefinition/medcom-core-lpr3Encounter"
          ]
        },
        "text": {
          "status": "generated",
          "div": "<div xmlns=\"http://www.w3.org/1999/xhtml\"><p><b>Generated Narrative</b></p><p><b>status</b>: unknown</p><p><b>class</b>: <span title=\"{http://terminology.hl7.org/CodeSystem/v3-ActCode AMB}\">ambulatory</span></p><p><b>subject</b>: <a href=\"#Patient_733cef33-3626-422b-955d-d506aaa65fe1\">See above (Patient/733cef33-3626-422b-955d-d506aaa65fe1)</a></p><p><b>episodeOfCare</b>: <span></span></p></div>"
        },
        "status": "unknown",
        "class": {
          "system": "http://terminology.hl7.org/CodeSystem/v3-ActCode",
          "code": "AMB"
        },
        "subject": {
          "reference": "Patient/733cef33-3626-422b-955d-d506aaa65fe1"
        },
        "episodeOfCare": [
          {
            "identifier": {
              "system": "https://www.esundhed.dk/Registre/Landspatientsregisteret",
              "value": "12345678-1234-1234-1234-123456789012"
            }
          }
        ]
      }
    },
    {
      "fullUrl": "Practitioner/58c811a5-4082-44eb-9d66-ccbb112d4973",
      "resource": {
        "resourceType": "Practitioner",
        "id": "58c811a5-4082-44eb-9d66-ccbb112d4973",
        "text": {
          "status": "generated",
          "div": "<div xmlns=\"http://www.w3.org/1999/xhtml\"><p><b>Generated Narrative</b></p><p><b>name</b>: Michael Burns </p></div>"
        },
        "name": [
          {
            "family": "Burns",
            "given": [
              "Michael"
            ]
          }
        ]
      }
    },
    {
      "fullUrl": "Organization/74cdf292-abf3-4f5f-80ea-60a48013ff6d",
      "resource": {
        "resourceType": "Organization",
        "id": "74cdf292-abf3-4f5f-80ea-60a48013ff6d",
        "meta": {
          "profile": [
            "http://medcomfhir.dk/fhir/core/1.0/StructureDefinition/medcom-messaging-organization"
          ]
        },
        "text": {
          "status": "generated",
          "div": "<div xmlns=\"http://www.w3.org/1999/xhtml\"><p><b>Generated Narrative</b></p><p><b>identifier</b>: id: 543210987654321, id: 5790000121526</p><p><b>name</b>: Receiver Organization</p></div>"
        },
        "identifier": [
          {
            "system": "urn:oid:1.2.208.176.1.1",
            "value": "543210987654321"
          },
          {
            "system": "urn:oid:1.3.88",
            "value": "5790000121526"
          }
        ],
        "name": "Receiver Organization"
      }
    },
    {
      "fullUrl": "Organization/d7056980-a8b2-42aa-8a0e-c1fc85d1f40d",
      "resource": {
        "resourceType": "Organization",
        "id": "d7056980-a8b2-42aa-8a0e-c1fc85d1f40d",
        "meta": {
          "profile": [
            "http://medcomfhir.dk/fhir/core/1.0/StructureDefinition/medcom-messaging-organization"
          ]
        },
        "text": {
          "status": "generated",
          "div": "<div xmlns=\"http://www.w3.org/1999/xhtml\"><p><b>Generated Narrative</b></p><p><b>identifier</b>: id: 123456789012345, id: 5790001382445</p><p><b>name</b>: Sender Organization</p></div>"
        },
        "identifier": [
          {
            "system": "urn:oid:1.2.208.176.1.1",
            "value": "123456789012345"
          },
          {
            "system": "urn:oid:1.3.88",
            "value": "5790001382445"
          }
        ],
        "name": "Sender Organization"
      }
    },
    {
      "fullUrl": "Provenance/4c284936-5454-4116-95fc-3c8eeeed2400",
      "resource": {
        "resourceType": "Provenance",
        "id": "4c284936-5454-4116-95fc-3c8eeeed2400",
        "meta": {
          "profile": [
            "http://medcomfhir.dk/fhir/core/1.0/StructureDefinition/medcom-messaging-provenance"
          ]
        },
        "text": {
          "status": "generated",
          "div": "<div xmlns=\"http://www.w3.org/1999/xhtml\"><p><b>Generated Narrative</b></p><p><b>target</b>: <a href=\"#MessageHeader_42cb9200-f421-4d08-8391-7d51a2503cb4\">See above (MessageHeader/42cb9200-f421-4d08-8391-7d51a2503cb4)</a></p><p><b>occurred</b>: Sep 28, 2020, 12:34:56 PM</p><p><b>recorded</b>: Sep 28, 2020, 12:34:56 PM</p><p><b>activity</b>: <span title=\"Codes: {http://medcomfhir.dk/fhir/core/1.0/CodeSystem/medcom-messaging-activityCodes new-message}\">A new message has been sent</span></p><h3>Agents</h3><table class=\"grid\"><tr><td>-</td><td><b>Who</b></td></tr><tr><td>*</td><td><a href=\"#Organization_d7056980-a8b2-42aa-8a0e-c1fc85d1f40d\">See above (Organization/d7056980-a8b2-42aa-8a0e-c1fc85d1f40d)</a></td></tr></table></div>"
        },
        "target": [
          {
            "reference": "MessageHeader/42cb9200-f421-4d08-8391-7d51a2503cb4"
          }
        ],
        "occurredDateTime": "2020-09-28T12:34:56Z",
        "recorded": "2020-09-28T12:34:56Z",
        "activity": {
          "coding": [
            {
              "system": "http://medcomfhir.dk/fhir/core/1.0/CodeSystem/medcom-messaging-activityCodes",
              "code": "new-message"
            }
          ]
        },
        "agent": [
          {
            "who": {
              "reference": "Organization/d7056980-a8b2-42aa-8a0e-c1fc85d1f40d"
            }
          }
        ]
      }
    }
  ]
}