<?xml version="1.0" encoding="UTF-8"?>

<Bundle xmlns="http://hl7.org/fhir">
	<id value="0dd5e7e2-0c0f-4a4a-bfff-f6f984fa7e3c"/>
	<meta>
		<profile value="http://medcomfhir.dk/fhir/core/1.0/StructureDefinition/medcom-careCommunication-message"/>
	</meta>
	<type value="message"/>
	<timestamp value="2020-09-28T12:34:56Z"/>
	<entry>
		<fullUrl value="MessageHeader/42cb9200-f421-4d08-8391-7d51a2503cb4"/>
		<resource>
			<MessageHeader>
				<id value="42cb9200-f421-4d08-8391-7d51a2503cb4"/>
				<meta>
					<profile value="http://medcomfhir.dk/fhir/core/1.0/StructureDefinition/medcom-careCommunication-messageHeader"/>
				</meta>
				<text>
					<status value="generated"/>
					<div xmlns="http://www.w3.org/1999/xhtml">
						<p>
							<b>Generated Narrative</b>
						</p>
						<p>
							<b>event</b>: <span title="{http://medcomfhir.dk/fhir/core/1.0/CodeSystem/medcom-messaging-eventCodes care-communication-message}">Care Communication Message</span>
						</p>
						<h3>Destinations</h3>
						<table class="grid">
							<tr>
								<td>-</td>
								<td>
									<b>Extension</b>
								</td>
								<td>
									<b>Endpoint</b>
								</td>
								<td>
									<b>Receiver</b>
								</td>
							</tr>
							<tr>
								<td>*</td>
								<td></td>
								<td>
									<a href="http://medcomfhir.dk/unknown">http://medcomfhir.dk/unknown</a>
								</td>
								<td>
									<a href="#Organization_74cdf292-abf3-4f5f-80ea-60a48013ff6d">See above (Organization/74cdf292-abf3-4f5f-80ea-60a48013ff6d)</a>
								</td>
							</tr>
						</table>
						<p>
							<b>sender</b>: <a href="#Organization_d7056980-a8b2-42aa-8a0e-c1fc85d1f40d">See above (Organization/d7056980-a8b2-42aa-8a0e-c1fc85d1f40d)</a>
						</p>
						<h3>Sources</h3>
						<table class="grid">
							<tr>
								<td>-</td>
								<td>
									<b>Endpoint</b>
								</td>
							</tr>
							<tr>
								<td>*</td>
								<td>
									<a href="http://medcomfhir.dk/unknown">http://medcomfhir.dk/unknown</a>
								</td>
							</tr>
						</table>
						<p>
							<b>focus</b>: <a href="#Communication_94e65db8-2f0c-4a2c-a7c9-06a160d59a12">See above (Communication/94e65db8-2f0c-4a2c-a7c9-06a160d59a12)</a>
						</p>
					</div>
				</text>
				<eventCoding>
					<system value="http://medcomfhir.dk/fhir/core/1.0/CodeSystem/medcom-messaging-eventCodes"/>
					<code value="care-communication-message"/>
				</eventCoding>
				<destination>
					<extension url="http://medcomfhir.dk/fhir/core/1.0/StructureDefinition/medcom-messaging-destinationUseExtension">
						<valueCoding>
							<system value="http://medcomfhir.dk/fhir/core/1.0/CodeSystem/medcom-messaging-destinationUse"/>
							<code value="primary"/>
						</valueCoding>
					</extension>
					<endpoint value="http://medcomfhir.dk/unknown"/>
					<receiver>
						<reference value="Organization/74cdf292-abf3-4f5f-80ea-60a48013ff6d"/>
					</receiver>
				</destination>
				<sender>
					<reference value="Organization/d7056980-a8b2-42aa-8a0e-c1fc85d1f40d"/>
				</sender>
				<source>
					<endpoint value="http://medcomfhir.dk/unknown"/>
				</source>
				<focus>
					<reference value="Communication/94e65db8-2f0c-4a2c-a7c9-06a160d59a12"/>
				</focus>
			</MessageHeader>
		</resource>
	</entry>
	<entry>
		<fullUrl value="Patient/733cef33-3626-422b-955d-d506aaa65fe1"/>
		<resource>
			<Patient>
				<id value="733cef33-3626-422b-955d-d506aaa65fe1"/>
				<meta>
					<profile value="http://medcomfhir.dk/fhir/core/1.0/StructureDefinition/medcom-core-patient"/>
				</meta>
				<text>
					<status value="generated"/>
					<div xmlns="http://www.w3.org/1999/xhtml">
						<p>
							<b>Generated Narrative</b>
						</p>
						<p>
							<b>identifier</b>: id: 0102030405
						</p>
						<p>
							<b>name</b>: Eric Flame (OFFICIAL)
						</p>
						<p>
							<b>telecom</b>: ph: 12345678
						</p>
						<p>
							<b>address</b>: Flammesvinget 1 Aarhus 8000 C
						</p>
						<p>
							<b>managingOrganization</b>: <a href="#Organization_12ee0dde-a672-462f-820d-5efe832d73c9">See above (Organization/12ee0dde-a672-462f-820d-5efe832d73c9)</a>
						</p>
					</div>
				</text>
				<identifier>
					<system value="urn:oid:1.2.208.176.1.2"/>
					<value value="0102030405"/>
				</identifier>
				<name>
					<use value="official"/>
					<family value="Flame"/>
					<given value="Eric"/>
				</name>
				<telecom>
					<system value="phone"/>
					<value value="12345678"/>
				</telecom>
				<address>
					<line value="Flammesvinget 1"/>
					<city value="Aarhus"/>
					<postalCode value="8000 C"/>
				</address>
				<managingOrganization>
					<reference value="Organization/12ee0dde-a672-462f-820d-5efe832d73c9"/>
				</managingOrganization>
			</Patient>
		</resource>
	</entry>
	<entry>
		<fullUrl value="Organization/12ee0dde-a672-462f-820d-5efe832d73c9"/>
		<resource>
			<Organization>
				<id value="12ee0dde-a672-462f-820d-5efe832d73c9"/>
				<meta>
					<profile value="http://medcomfhir.dk/fhir/core/1.0/StructureDefinition/medcom-core-organization"/>
				</meta>
				<text>
					<status value="generated"/>
					<div xmlns="http://www.w3.org/1999/xhtml">
						<p>
							<b>Generated Narrative</b>
						</p>
						<p>
							<b>identifier</b>: id: 123456789012345 (OFFICIAL)
						</p>
						<p>
							<b>name</b>: Aros Burn Center
						</p>
					</div>
				</text>
				<identifier>
					<use value="official"/>
					<system value="urn:oid:1.2.208.176.1.1"/>
					<value value="123456789012345"/>
				</identifier>
				<name value="Aros Burn Center"/>
			</Organization>
		</resource>
	</entry>
	<entry>
		<fullUrl value="Communication/94e65db8-2f0c-4a2c-a7c9-06a160d59a12"/>
		<resource>
			<Communication>
				<id value="94e65db8-2f0c-4a2c-a7c9-06a160d59a12"/>
				<meta>
					<profile value="http://medcomfhir.dk/fhir/core/1.0/StructureDefinition/medcom-careCommunication-communication"/>
				</meta>
				<text>
					<status value="generated"/>
					<div xmlns="http://www.w3.org/1999/xhtml">
						<p>
							<b>Generated Narrative</b>
						</p>
						<p>
							<b>status</b>: unknown
						</p>
						<p>
							<b>category</b>: <span title="Codes: {http://medcomfhir.dk/fhir/core/1.0/CodeSystem/medcom-careCommunication-categoryCodes carecoordination}">Care Coordination</span>
						</p>
						<p>
							<b>subject</b>: <a href="#Patient_733cef33-3626-422b-955d-d506aaa65fe1">See above (Patient/733cef33-3626-422b-955d-d506aaa65fe1)</a>
						</p>
						<p>
							<b>encounter</b>: <a href="#Encounter_09437365-821a-4a94-b32b-8916db1d5f62">See above (Encounter/09437365-821a-4a94-b32b-8916db1d5f62)</a>
						</p>
						<p>
							<b>sent</b>: Sep 28, 2020, 12:34:56 PM
						</p>
						<h3>Payloads</h3>
						<table class="grid">
							<tr>
								<td>-</td>
								<td>
									<b>Extension</b>
								</td>
								<td>
									<b>Content[x]</b>
								</td>
							</tr>
							<tr>
								<td>*</td>
								<td>, </td>
								<td>The burns are quite severe</td>
							</tr>
						</table>
					</div>
				</text>
				<status value="unknown"/>
				<category>
					<coding>
						<system value="http://medcomfhir.dk/fhir/core/1.0/CodeSystem/medcom-careCommunication-categoryCodes"/>
						<code value="carecoordination"/>
					</coding>
				</category>
				<subject>
					<reference value="Patient/733cef33-3626-422b-955d-d506aaa65fe1"/>
				</subject>
				<encounter>
					<reference value="Encounter/09437365-821a-4a94-b32b-8916db1d5f62"/>
				</encounter>
				<sent value="2020-09-28T12:34:56Z"/>
				<payload>
					<extension url="http://medcomfhir.dk/fhir/core/1.0/StructureDefinition/medcom-core-datetime-extension">
						<valueDateTime value="2020-09-28"/>
					</extension>
					<extension url="http://medcomfhir.dk/fhir/core/1.0/StructureDefinition/medcom-core-author-extension">
						<valueReference>
							<reference value="Practitioner/58c811a5-4082-44eb-9d66-ccbb112d4973"/>
						</valueReference>
					</extension>
					<contentString value="The burns are quite severe"/>
				</payload>
			</Communication>
		</resource>
	</entry>
	<entry>
		<fullUrl value="Encounter/09437365-821a-4a94-b32b-8916db1d5f62"/>
		<resource>
			<Encounter>
				<id value="09437365-821a-4a94-b32b-8916db1d5f62"/>
				<meta>
					<profile value="http://medcomfhir.dk/fhir/core/1.0/StructureDefinition/medcom-core-lpr3Encounter"/>
				</meta>
				<text>
					<status value="generated"/>
					<div xmlns="http://www.w3.org/1999/xhtml">
						<p>
							<b>Generated Narrative</b>
						</p>
						<p>
							<b>status</b>: unknown
						</p>
						<p>
							<b>class</b>: <span title="{http://terminology.hl7.org/CodeSystem/v3-ActCode AMB}">ambulatory</span>
						</p>
						<p>
							<b>subject</b>: <a href="#Patient_733cef33-3626-422b-955d-d506aaa65fe1">See above (Patient/733cef33-3626-422b-955d-d506aaa65fe1)</a>
						</p>
						<p>
							<b>episodeOfCare</b>: <span></span>
						</p>
					</div>
				</text>
				<status value="unknown"/>
				<class>
					<system value="http://terminology.hl7.org/CodeSystem/v3-ActCode"/>
					<code value="AMB"/>
				</class>
				<subject>
					<reference value="Patient/733cef33-3626-422b-955d-d506aaa65fe1"/>
				</subject>
				<episodeOfCare>
					<identifier>
						<system value="https://www.esundhed.dk/Registre/Landspatientsregisteret"/>
						<value value="12345678-1234-1234-1234-123456789012"/>
					</identifier>
				</episodeOfCare>
			</Encounter>
		</resource>
	</entry>
	<entry>
		<fullUrl value="Practitioner/58c811a5-4082-44eb-9d66-ccbb112d4973"/>
		<resource>
			<Practitioner>
				<id value="58c811a5-4082-44eb-9d66-ccbb112d4973"/>
				<text>
					<status value="generated"/>
					<div xmlns="http://www.w3.org/1999/xhtml">
						<p>
							<b>Generated Narrative</b>
						</p>
						<p>
							<b>name</b>: Michael Burns
						</p>
					</div>
				</text>
				<name>
					<family value="Burns"/>
					<given value="Michael"/>
				</name>
			</Practitioner>
		</resource>
	</entry>
	<entry>
		<fullUrl value="Organization/74cdf292-abf3-4f5f-80ea-60a48013ff6d"/>
		<resource>
			<Organization>
				<id value="74cdf292-abf3-4f5f-80ea-60a48013ff6d"/>
				<meta>
					<profile value="http://medcomfhir.dk/fhir/core/1.0/StructureDefinition/medcom-messaging-organization"/>
				</meta>
				<text>
					<status value="generated"/>
					<div xmlns="http://www.w3.org/1999/xhtml">
						<p>
							<b>Generated Narrative</b>
						</p>
						<p>
							<b>identifier</b>: id: 543210987654321, id: 5790000121526
						</p>
						<p>
							<b>name</b>: Receiver Organization
						</p>
					</div>
				</text>
				<identifier>
					<system value="urn:oid:1.2.208.176.1.1"/>
					<value value="543210987654321"/>
				</identifier>
				<identifier>
					<system value="urn:oid:1.3.88"/>
					<value value="5790000121526"/>
				</identifier>
				<name value="Receiver Organization"/>
			</Organization>
		</resource>
	</entry>
	<entry>
		<fullUrl value="Organization/d7056980-a8b2-42aa-8a0e-c1fc85d1f40d"/>
		<resource>
			<Organization>
				<id value="d7056980-a8b2-42aa-8a0e-c1fc85d1f40d"/>
				<meta>
					<profile value="http://medcomfhir.dk/fhir/core/1.0/StructureDefinition/medcom-messaging-organization"/>
				</meta>
				<text>
					<status value="generated"/>
					<div xmlns="http://www.w3.org/1999/xhtml">
						<p>
							<b>Generated Narrative</b>
						</p>
						<p>
							<b>identifier</b>: id: 123456789012345, id: 5790001382445
						</p>
						<p>
							<b>name</b>: Sender Organization
						</p>
					</div>
				</text>
				<identifier>
					<system value="urn:oid:1.2.208.176.1.1"/>
					<value value="123456789012345"/>
				</identifier>
				<identifier>
					<system value="urn:oid:1.3.88"/>
					<value value="5790001382445"/>
				</identifier>
				<name value="Sender Organization"/>
			</Organization>
		</resource>
	</entry>
	<entry>
		<fullUrl value="Provenance/4c284936-5454-4116-95fc-3c8eeeed2400"/>
		<resource>
			<Provenance>
				<id value="4c284936-5454-4116-95fc-3c8eeeed2400"/>
				<meta>
					<profile value="http://medcomfhir.dk/fhir/core/1.0/StructureDefinition/medcom-messaging-provenance"/>
				</meta>
				<text>
					<status value="generated"/>
					<div xmlns="http://www.w3.org/1999/xhtml">
						<p>
							<b>Generated Narrative</b>
						</p>
						<p>
							<b>target</b>: <a href="#MessageHeader_42cb9200-f421-4d08-8391-7d51a2503cb4">See above (MessageHeader/42cb9200-f421-4d08-8391-7d51a2503cb4)</a>
						</p>
						<p>
							<b>occurred</b>: Sep 28, 2020, 12:34:56 PM
						</p>
						<p>
							<b>recorded</b>: Sep 28, 2020, 12:34:56 PM
						</p>
						<p>
							<b>activity</b>: <span title="Codes: {http://medcomfhir.dk/fhir/core/1.0/CodeSystem/medcom-messaging-activityCodes new-message}">A new message has been sent</span>
						</p>
						<h3>Agents</h3>
						<table class="grid">
							<tr>
								<td>-</td>
								<td>
									<b>Who</b>
								</td>
							</tr>
							<tr>
								<td>*</td>
								<td>
									<a href="#Organization_d7056980-a8b2-42aa-8a0e-c1fc85d1f40d">See above (Organization/d7056980-a8b2-42aa-8a0e-c1fc85d1f40d)</a>
								</td>
							</tr>
						</table>
					</div>
				</text>
				<target>
					<reference value="MessageHeader/42cb9200-f421-4d08-8391-7d51a2503cb4"/>
				</target>
				<occurredDateTime value="2020-09-28T12:34:56Z"/>
				<recorded value="2020-09-28T12:34:56Z"/>
				<activity>
					<coding>
						<system value="http://medcomfhir.dk/fhir/core/1.0/CodeSystem/medcom-messaging-activityCodes"/>
						<code value="new-message"/>
					</coding>
				</activity>
				<agent>
					<who>
						<reference value="Organization/d7056980-a8b2-42aa-8a0e-c1fc85d1f40d"/>
					</who>
				</agent>
			</Provenance>
		</resource>
	</entry>
</Bundle>